Longitude,Latitude,Speed,Distance,Time,Acc X,Acc Y,Acc Z,Heading,gyro_x,gyro_y,gyro_z
0.0,0.0,0.0,0.0,15-47-33,0.07913685,-0.13618678,-0.07539058,149.0,0.037686113,0.01675237,0.022068117
0.0,0.0,0.0,0.0,15-47-33,0.0646162,-0.06906611,0.014208555,149.0,0.005310252,-0.029062524,-0.0017556266
0.0,0.0,0.0,0.0,15-47-33,0.056342125,0.013073325,0.023348093,149.0,0.005310252,-0.029062524,-0.0017556266
0.0,0.0,0.0,0.0,15-47-33,0.04247856,0.077813804,-0.0036149025,149.0,-0.027676472,0.006367659,-0.0054208185
0.0,0.0,0.0,0.0,15-47-33,0.14730835,0.08159596,0.13083649,149.0,-0.027676472,0.006367659,-0.0054208185
0.0,0.0,0.0,0.0,15-47-33,-0.23363113,0.07563028,-0.12507057,149.0,-0.032563392,0.062567264,0.05261138
0.0,0.0,0.0,0.0,15-47-33,-0.4270029,-0.013014317,-0.23876429,149.0,-0.056387138,0.25193548,0.088652425
0.0,0.0,0.0,0.0,15-47-33,0.21447468,0.009530783,0.06406593,149.0,-0.056387138,0.25193548,0.088652425
0.0,0.0,0.0,0.0,15-47-34,0.39593887,0.030941248,-0.52273154,149.0,0.10610302,0.12182119,0.059941765
0.0,0.0,0.0,0.0,15-47-34,0.44885826,-0.39540654,-0.4928615,148.0,0.10610302,0.12182119,0.059941765
0.0,0.0,0.0,0.0,15-47-34,0.36261463,-0.36167216,-0.7393534,147.0,0.22216742,0.07600629,-0.009696875
0.0,0.0,0.0,0.0,15-47-34,0.08282375,-0.5462118,-0.67210627,146.0,0.22216742,0.07600629,-0.009696875
0.0,0.0,0.0,0.0,15-47-34,-0.13954735,-0.5813656,-0.5039191,146.0,0.098161764,0.017974097,-0.046348788
0.0,0.0,0.0,0.0,15-47-34,0.30245876,0.34645373,0.0032801628,145.0,0.098161764,0.017974097,-0.046348788
0.0,0.0,0.0,0.0,15-47-34,-0.13481712,0.6615336,0.5885258,143.0,0.34678394,0.19145982,0.075213395
0.0,0.0,0.0,0.0,15-47-34,-0.15307713,0.66014653,0.5450311,142.0,0.103659555,0.22933348,-0.04146187
0.0,0.0,0.0,0.0,15-47-34,-1.002285,0.2936172,-0.1223712,141.0,0.103659555,0.22933348,-0.04146187
0.0,0.0,0.0,0.0,15-47-34,-0.8863654,0.773663,-0.22606182,141.0,-0.052721947,0.033856593,0.003131295
0.0,0.0,0.0,0.0,15-47-35,-0.73635197,0.47949618,0.1918726,142.0,-0.052721947,0.033856593,0.003131295
0.0,0.0,0.0,0.0,15-47-35,-0.5384331,0.57442045,-0.43362427,143.0,-0.12358231,-0.06754704,-0.17524137
0.0,0.0,0.0,0.0,15-47-35,0.053346634,0.075757295,1.4551091,143.0,-0.12358231,-0.06754704,-0.17524137
0.0,0.0,0.0,0.0,15-47-35,0.61419964,-0.42036623,-0.33572292,144.0,-0.27080083,0.38938016,0.14485204
0.0,0.0,0.0,0.0,15-47-35,0.0133218765,-0.11112106,-0.38136768,142.0,-0.27080083,0.38938016,0.14485204
0.0,0.0,0.0,0.0,15-47-35,-0.8476033,-0.48732334,0.22986937,140.0,0.23194125,0.06562159,0.16684319
0.0,0.0,0.0,0.0,15-47-35,-0.6636143,-0.9139821,-0.022559643,139.0,0.23255213,-0.22881547,0.05261138
0.0,0.0,0.0,0.0,15-47-35,-0.20984268,-0.66750133,0.427001,138.0,0.23255213,-0.22881547,0.05261138
0.0,0.0,0.0,0.0,15-47-35,-0.50270176,-0.021188736,0.54176235,139.0,-0.06982617,-0.22576115,-0.07444859
0.0,0.0,0.0,0.0,15-47-35,0.7360039,0.38047853,1.861794,138.0,-0.06982617,-0.22576115,-0.07444859
0.0,0.0,0.0,0.0,15-47-36,0.004137993,0.79019785,0.23459911,137.0,0.3858793,0.081504084,-0.040851
0.0,0.0,0.0,0.0,15-47-36,-0.8719382,0.7382152,-0.6957617,136.0,0.3858793,0.081504084,-0.040851
0.0,0.0,0.0,0.0,15-47-36,-1.2694921,0.6595677,0.09880018,135.0,0.14947446,-0.1701724,0.05261138
0.0,0.0,0.0,0.0,15-47-36,0.57834816,0.061314225,2.2752924,134.0,0.14947446,-0.1701724,0.05261138
0.0,0.0,0.0,0.0,15-47-36,0.6462631,-0.5884628,2.4453545,133.0,0.046849087,-0.38214263,0.11064358
0.0,0.0,0.0,0.0,15-47-36,0.23162365,-0.12430268,-0.26778746,131.0,0.44635496,-0.08587299,-0.06345302
0.0,0.0,0.0,0.0,15-47-36,-0.6609945,-0.3990423,-1.206502,130.0,0.44635496,-0.08587299,-0.06345302
0.0,0.0,0.0,0.0,15-47-36,-1.1161413,-0.68506914,-1.3164868,128.0,0.35044912,-0.102977216,0.07032647
0.0,0.0,0.0,0.0,15-47-36,-0.2844305,0.04244031,1.0248709,127.0,0.35044912,-0.102977216,0.07032647
0.0,0.0,0.0,0.0,15-47-36,1.5179577,0.66411877,0.14700603,126.0,0.18673722,-0.1787245,0.08437637
0.0,0.0,0.0,0.0,15-47-37,1.2796478,0.9055883,0.5934315,124.0,0.18673722,-0.1787245,0.08437637
0.0,0.0,0.0,0.0,15-47-37,-1.3033175,0.66558546,-1.9596198,123.0,0.36938593,0.29469603,0.13080212
0.0,0.0,0.0,0.0,15-47-37,-0.8930454,0.6211131,-0.47240973,122.0,0.36938593,0.29469603,0.13080212
0.0,0.0,0.0,0.0,15-47-37,-0.8434057,0.55842334,-0.4437194,120.0,0.31807324,-0.33082995,-0.022525046
0.0,0.0,0.0,0.0,15-47-37,0.40431023,0.2113016,1.6517258,119.0,0.090831384,-0.41818368,0.066661276
0.0,0.0,0.0,0.0,15-47-37,1.2910423,-0.23503187,2.722046,117.0,0.090831384,-0.41818368,0.066661276
0.0,0.0,0.0,0.0,15-47-37,1.0955505,-0.292118,1.0398383,116.0,0.11465513,0.22322482,0.088652425
0.0,0.0,0.0,0.0,15-47-37,-1.646296,-0.5703225,0.37409496,116.0,0.11465513,0.22322482,0.088652425
0.0,0.0,0.0,0.0,15-47-37,-1.5216131,0.44890368,-1.4850442,113.0,0.491559,-0.312504,0.1894452
0.0,0.0,0.0,0.0,15-47-37,0.72910404,0.548171,0.29049635,110.0,0.491559,-0.312504,0.1894452
0.0,0.0,0.0,0.0,15-47-38,1.2484312,0.4348902,-0.6560333,107.0,0.36205554,-0.2685217,0.23709269
0.0,0.0,0.0,0.0,15-47-38,0.51678276,0.47380573,-1.4409413,105.0,0.36205554,-0.2685217,0.23709269
0.0,0.0,0.0,0.0,15-47-38,-0.29924393,0.13983744,-0.06079912,103.0,0.26126277,0.2305552,0.04222667
0.0,0.0,0.0,0.0,15-47-38,-0.23450375,0.7736066,-0.4493425,101.0,0.35228172,-0.29601064,0.14668463
0.0,0.0,0.0,0.0,15-47-38,-1.1823316,0.41789344,0.09666395,98.0,0.35228172,-0.29601064,0.14668463
0.0,0.0,0.0,0.0,15-47-38,0.41594028,-0.1442878,2.9128609,94.0,0.70475096,-0.21904162,0.1735627
0.0,0.0,0.0,0.0,15-47-38,1.1466837,-0.25129828,2.5777144,93.0,0.70475096,-0.21904162,0.1735627
0.0,0.0,0.0,0.0,15-47-38,-0.111968994,0.40704474,0.25630617,92.0,0.09694004,0.27026144,0.011072543
0.0,0.0,0.0,0.0,15-47-38,-1.2008018,0.11859086,-0.87422395,88.0,0.09694004,0.27026144,0.011072543
0.0,0.0,0.0,0.0,15-47-38,-0.28260517,-0.7368691,0.896821,86.0,0.097550906,0.017974097,0.3409398
0.0,0.0,0.0,0.0,15-47-39,-0.024298668,-0.27156478,-0.3727107,80.0,0.83120006,-0.22270681,0.3384963
0.0,0.0,0.0,0.0,15-47-39,1.9872503,0.36358285,0.78443193,76.0,0.83120006,-0.22270681,0.3384963
0.0,0.0,0.0,0.0,15-47-39,1.5027714,-0.028167307,0.6653836,74.0,0.47628736,0.28431135,0.20288423
0.0,0.0,0.0,0.0,15-47-39,0.26581,0.7945572,-0.14694738,70.0,0.47628736,0.28431135,0.20288423
0.0,0.0,0.0,0.0,15-47-39,-0.71857834,0.61994696,-1.1564074,65.0,0.76278317,-0.11641625,0.39103073
0.0,0.0,0.0,0.0,15-47-39,-0.27143097,0.3968984,-1.2740326,59.0,0.76278317,-0.11641625,0.39103073
0.0,0.0,0.0,0.0,15-47-39,0.7298279,0.16303755,-0.18685436,54.0,1.1494608,-0.007071376,0.33483112
0.0,0.0,0.0,0.0,15-47-39,1.1485739,0.26344645,-0.25192618,48.0,1.1494608,-0.007071376,0.33483112
0.0,0.0,0.0,0.0,15-47-39,0.5670004,0.1370996,-0.044075012,45.0,0.6241168,-0.08098607,0.26213816
0.0,0.0,0.0,0.0,15-47-39,0.13163376,0.46051255,-0.3467152,41.0,0.46773523,0.054626014,0.2969575
0.0,0.0,0.0,0.0,15-47-40,-1.0334239,-0.47107,-0.5693855,37.0,0.46773523,0.054626014,0.2969575
0.0,0.0,0.0,0.0,15-47-40,-0.817852,-0.47043484,-0.7270477,32.0,0.890454,-0.07793175,0.30856392
0.0,0.0,0.0,0.0,15-47-40,0.1505909,-0.15597557,0.10441232,26.0,0.890454,-0.07793175,0.30856392
0.0,0.0,0.0,0.0,15-47-40,1.3459177,0.8734535,-0.27019835,20.0,0.96681213,0.13648197,0.4582259
0.0,0.0,0.0,0.0,15-47-40,1.8225613,1.1431024,-1.7837228,14.0,0.96681213,0.13648197,0.4582259
0.0,0.0,0.0,0.0,15-47-40,-0.38843822,0.47576964,-0.43688655,9.0,0.9393232,-0.091370784,0.07704599
0.0,0.0,0.0,0.0,15-47-40,-0.95950794,0.31923544,-1.2652488,5.0,0.9393232,-0.091370784,0.07704599
0.0,0.0,0.0,0.0,15-47-40,-0.2737131,0.39216608,-1.3904366,1.0,0.5630302,0.08394755,0.39775026
0.0,0.0,0.0,0.0,15-47-40,0.29813957,-0.07962291,-0.6203377,357.0,0.43780285,0.1444232,0.3067313
0.0,0.0,0.0,0.0,15-47-40,0.9497757,0.28377748,-0.6985462,354.0,0.43780285,0.1444232,0.3067313
0.0,0.0,0.0,0.0,15-47-41,0.8574047,0.6869651,1.8834927,350.0,0.38160324,0.20001195,0.31894863
0.0,0.0,0.0,0.0,15-47-41,0.68281937,0.58339137,1.0879412,347.0,0.38160324,0.20001195,0.31894863
0.0,0.0,0.0,0.0,15-47-41,-0.2851839,0.19728199,-1.0729728,345.0,0.22277828,0.1884055,0.25480777
0.0,0.0,0.0,0.0,15-47-41,-0.45265484,-0.5470728,-0.82862306,341.0,0.22277828,0.1884055,0.25480777
0.0,0.0,0.0,0.0,15-47-41,-0.0017757416,-0.5982907,-1.1050954,338.0,0.4475767,0.022250157,0.09537195
0.0,0.0,0.0,0.0,15-47-41,0.7130041,-0.2564386,0.13638067,336.0,0.4475767,0.022250157,0.09537195
0.0,0.0,0.0,0.0,15-47-41,0.5439005,0.6157032,1.3374567,333.0,0.31135374,0.35272825,0.2120472
0.0,0.0,0.0,0.0,15-47-41,0.39934063,1.2274632,-0.61005354,331.0,0.59540606,0.35272825,0.18455827
0.0,0.0,0.0,0.0,15-47-41,0.18938541,0.76525146,0.23554659,328.0,0.59540606,0.35272825,0.18455827
0.0,0.0,0.0,0.0,15-47-41,-0.35283184,0.46308845,-1.4691827,327.0,-0.04600243,0.14320147,0.24381219
0.0,0.0,0.0,0.0,15-47-42,-0.19198418,0.3469938,-0.1471076,326.0,-0.04600243,0.14320147,0.24381219
0.0,0.0,0.0,0.0,15-47-42,0.22405624,0.6151731,0.2601757,325.0,0.01691669,-0.0095148375,0.11797396
0.0,0.0,0.0,0.0,15-47-42,0.25118923,0.21948808,0.82070017,324.0,0.01691669,-0.0095148375,0.11797396
0.0,0.0,0.0,0.0,15-47-42,0.18132687,0.16932335,1.1251245,324.0,0.1678004,0.16763608,0.027565904
0.0,0.0,0.0,0.0,15-47-42,-0.506073,-0.19793636,-0.18643141,323.0,0.1678004,0.16763608,0.027565904
0.0,0.0,0.0,0.0,15-47-42,-0.48504496,-0.38636458,-0.43438625,323.0,0.18185031,0.08944534,0.09170676
0.0,0.0,0.0,0.0,15-47-42,0.0724144,-0.52757907,-0.0049467087,321.0,0.34250787,-0.13535307,0.028787635
0.0,0.0,0.0,0.0,15-47-42,0.35925198,-0.47097954,-0.24047852,320.0,0.34250787,-0.13535307,0.028787635
0.0,0.0,0.0,0.0,15-47-42,0.3964672,-0.33386457,1.1221471,319.0,0.10427042,-0.008293107,0.07643513
0.0,0.0,0.0,0.0,15-47-42,-0.7816038,0.058447957,-0.04529333,319.0,0.10427042,-0.008293107,0.07643513
0.0,0.0,0.0,0.0,15-47-43,-0.30908966,0.6138321,0.4233265,317.0,0.17207646,0.1303733,0.14912808
0.0,0.0,0.0,0.0,15-47-43,-0.6198001,0.5189615,-0.6945939,316.0,0.17207646,0.1303733,0.14912808
0.0,0.0,0.0,0.0,15-47-43,-0.7359662,0.30099893,-0.30877495,315.0,-0.0050744577,0.044241305,0.2260971
0.0,0.0,0.0,0.0,15-47-43,-0.97896624,0.117777094,-1.4380705,316.0,-0.0050744577,0.044241305,0.2260971
0.0,0.0,0.0,0.0,15-47-43,-0.38085842,0.6041987,-0.3430996,316.0,0.03402092,-0.35892975,-0.020692449
0.0,0.0,0.0,0.0,15-47-43,0.58308697,-0.011688471,0.01411581,316.0,0.044405628,-0.33816034,-0.00786428
0.0,0.0,0.0,0.0,15-47-43,0.33293056,-0.7827008,1.5573912,315.0,0.044405628,-0.33816034,-0.00786428
0.0,0.0,0.0,0.0,15-47-43,0.6633358,-0.7841403,0.57390165,316.0,-0.029509068,0.14869927,-0.046959657
0.0,0.0,0.0,0.0,15-47-43,-0.4441948,-0.25580227,-0.5489559,316.0,-0.029509068,0.14869927,-0.046959657
0.0,0.0,0.0,0.0,15-47-43,-0.7682147,-0.34812292,-0.68079185,315.0,0.115265995,-0.24530882,0.062385224
0.0,0.0,0.0,0.0,15-47-44,-0.536448,-0.83460367,-0.028840542,315.0,0.115265995,-0.24530882,0.062385224
0.0,0.0,0.0,0.0,15-47-44,0.4414339,-0.15170479,0.784781,314.0,0.043794762,-0.008293107,0.08071118
0.0,0.0,0.0,0.0,15-47-44,0.37353802,0.26478162,0.23375559,313.0,0.043794762,-0.008293107,0.08071118
0.0,0.0,0.0,0.0,15-47-44,-0.34921026,0.123890445,-0.5713711,313.0,0.07006197,0.27331576,-0.00908601
0.0,0.0,0.0,0.0,15-47-44,-0.6650357,0.26185682,-0.115318775,313.0,0.09266398,-0.30822793,-0.014583796
0.0,0.0,0.0,0.0,15-47-44,-0.1721716,0.50278574,0.43697643,313.0,0.09266398,-0.30822793,-0.014583796
0.0,0.0,0.0,0.0,15-47-44,1.1063957,-0.12168343,1.7306623,313.0,0.17451993,-0.24714142,-0.065285616
0.0,0.0,0.0,0.0,15-47-44,0.9629345,-0.36660036,1.432167,313.0,0.17451993,-0.24714142,-0.065285616
0.0,0.0,0.0,0.0,15-47-44,0.06836128,-0.7889163,-0.51821566,314.0,-0.32333523,0.18107513,-0.0011447615
0.0,0.0,0.0,0.0,15-47-44,-0.525332,-0.34384793,0.7174034,314.0,-0.32333523,0.18107513,-0.0011447615
0.0,0.0,0.0,0.0,15-47-45,-0.92021084,-0.39643773,-0.7738266,312.0,0.28019962,-0.14757039,0.056887437
0.0,0.0,0.0,0.0,15-47-45,0.2677126,-0.47542208,1.1048732,312.0,0.28019962,-0.14757039,0.056887437
0.0,0.0,0.0,0.0,15-47-45,0.67510986,0.5951416,-0.3328414,310.0,0.5575324,-0.071212225,0.017181195
0.0,0.0,0.0,0.0,15-47-45,0.041953087,0.316161,-0.83322716,309.0,0.255765,0.085780144,0.15768021
0.0,0.0,0.0,0.0,15-47-45,-0.29687357,0.44315407,-0.060081005,309.0,0.255765,0.085780144,0.15768021
0.0,0.0,0.0,0.0,15-47-45,-0.47100544,-0.3923251,-0.57313585,308.0,0.1555831,-0.35037765,0.007407352
0.0,0.0,0.0,0.0,15-47-45,0.14815044,-0.3171757,2.1682696,307.0,0.1555831,-0.35037765,0.007407352
0.0,0.0,0.0,0.0,15-47-45,1.7512493,0.12779588,1.1264443,304.0,0.6619904,0.2782027,-0.024357641
0.0,0.0,0.0,0.0,15-47-45,0.11445999,-1.1706299,-0.4253807,304.0,0.6619904,0.2782027,-0.024357641
0.0,0.0,0.0,0.0,15-47-45,-0.88808155,-0.65140074,0.018635273,303.0,0.21056098,-0.075488284,0.14607376
0.0,0.0,0.0,0.0,15-47-46,-0.45010853,-0.41441038,0.39125252,301.0,0.21056098,-0.075488284,0.14607376
0.0,0.0,0.0,0.0,15-47-46,-0.08127689,-0.019662142,0.2700305,299.0,0.2942495,-0.1420726,0.24869913
0.0,0.0,0.0,0.0,15-47-46,1.2545424,0.6267812,0.7519865,298.0,0.12687244,0.3362349,0.20227335
0.0,0.0,0.0,0.0,15-47-46,0.5568409,0.42094645,-0.792325,297.0,0.12687244,0.3362349,0.20227335
0.0,0.0,0.0,0.0,15-47-46,-0.26987648,0.42147085,0.07209396,294.0,0.3681642,-0.2880694,0.1277478
0.0,0.0,0.0,0.0,15-47-46,-0.7416768,0.22794425,0.47686434,293.0,0.3681642,-0.2880694,0.1277478
0.0,0.0,0.0,0.0,15-47-46,0.5754452,-0.09206256,2.5083718,288.0,0.6473296,-0.16467461,0.15218242
0.0,0.0,0.0,0.0,15-47-46,0.7041483,0.14211237,0.9896779,282.0,0.6473296,-0.16467461,0.15218242
0.0,0.0,0.0,0.0,15-47-46,-0.16908741,-0.6795267,0.2179985,277.0,0.74018115,0.10716043,0.39225245
0.0,0.0,0.0,0.0,15-47-46,-0.7472105,-1.2776865,0.07075453,272.0,0.6027365,-0.020510413,0.46189108
0.0,0.0,0.0,0.0,15-47-47,0.06362629,-0.67508173,-0.07820654,267.0,0.6027365,-0.020510413,0.46189108
0.0,0.0,0.0,0.0,15-47-47,1.0584364,-0.29660088,0.283031,263.0,0.482396,-0.26607823,0.3879764
0.0,0.0,0.0,0.0,15-47-47,1.4543095,-0.016441703,0.2533908,259.0,0.482396,-0.26607823,0.3879764
0.0,0.0,0.0,0.0,15-47-47,0.3829918,0.60938364,-0.7712178,253.0,0.8873997,0.10288437,0.19249953
0.0,0.0,0.0,0.0,15-47-47,-0.41137886,0.4170301,-0.41539526,249.0,0.8873997,0.10288437,0.19249953
0.0,0.0,0.0,0.0,15-47-47,-0.454216,-0.0014712214,-0.16966534,244.0,0.79393727,-0.22637199,0.35254622
0.0,0.0,0.0,0.0,15-47-47,0.4662962,-0.27816695,0.39839554,240.0,0.79393727,-0.22637199,0.35254622
0.0,0.0,0.0,0.0,15-47-47,0.8800125,-0.16836715,0.34927773,235.0,0.8953409,-0.13107702,0.44845206
0.0,0.0,0.0,0.0,15-47-47,0.07564545,0.22367023,-0.09306836,231.0,0.6571035,0.041186977,0.35376793
0.0,0.0,0.0,0.0,15-47-47,-0.031752586,0.20806795,0.32830667,226.0,0.6571035,0.041186977,0.35376793
0.0,0.0,0.0,0.0,15-47-48,-0.12073231,-0.13004765,0.1797564,222.0,0.6748185,-0.029062524,0.2334275
0.0,0.0,0.0,0.0,15-47-48,-0.5382023,-0.7358669,-0.3467629,219.0,0.6748185,-0.029062524,0.2334275
0.0,0.0,0.0,0.0,15-47-48,-0.16159153,-0.5828564,-0.4169364,215.0,0.6882576,-0.019899545,0.120417416
0.0,0.0,0.0,0.0,15-47-48,-0.1756401,-0.804847,0.45682335,211.0,0.6882576,-0.019899545,0.120417416
0.0,0.0,0.0,0.0,15-47-48,0.25948048,-0.67545086,-0.2584145,207.0,0.5697498,-0.1261901,0.31894863
0.0,0.0,0.0,0.0,15-47-48,0.521945,0.08168861,1.5100694,201.0,0.5697498,-0.1261901,0.31894863
0.0,0.0,0.0,0.0,15-47-48,0.27650642,0.7457284,-0.53195167,196.0,0.98758155,0.12609725,0.12896954
0.0,0.0,0.0,0.0,15-47-48,0.22343731,0.8031187,-0.64939713,193.0,0.51538277,-0.04983194,0.29329228
0.0,0.0,0.0,0.0,15-47-48,-0.6252909,-0.023577422,-0.5814121,189.0,0.51538277,-0.04983194,0.29329228
0.0,0.0,0.0,0.0,15-47-48,-0.67991066,-0.13009953,-0.96629834,185.0,0.6461079,-0.057773188,0.25664037
0.0,0.0,0.0,0.0,15-47-49,-0.09562302,0.03594497,-0.74039984,182.0,0.6461079,-0.057773188,0.25664037
0.0,0.0,0.0,0.0,15-47-49,1.1537523,0.033450007,-0.42499685,176.0,0.70536184,0.32401758,0.42585003
0.0,0.0,0.0,0.0,15-47-49,0.5614958,4.4599175E-4,0.20694733,174.0,0.70536184,0.32401758,0.42585003
0.0,0.0,0.0,0.0,15-47-49,0.3465519,0.30043292,1.3222256,171.0,0.6882576,0.04973909,0.12469348
0.0,0.0,0.0,0.0,15-47-49,-0.67311573,-0.11695888,-0.14638925,168.0,0.6882576,0.04973909,0.12469348
0.0,0.0,0.0,0.0,15-47-49,-0.9462004,-0.5039289,-0.20602798,165.0,0.5508129,8.698721E-4,0.10514579
0.0,0.0,0.0,0.0,15-47-49,-0.18475914,-0.7892736,-0.1201942,163.0,0.3211276,0.06501072,0.23770355
0.0,0.0,0.0,0.0,15-47-49,0.65215015,-0.10974495,0.6969156,160.0,0.3211276,0.06501072,0.23770355
0.0,0.0,0.0,0.0,15-47-49,0.4262867,0.47395036,1.1778684,156.0,0.4714004,0.019195829,0.45394987
0.0,0.0,0.0,0.0,15-47-49,0.71253395,1.2945956,-0.9074993,153.0,0.4714004,0.019195829,0.45394987
0.0,0.0,0.0,0.0,15-47-50,0.09582615,1.3742665,-0.26528645,151.0,0.4127574,0.16946867,-0.07322686
0.0,0.0,0.0,0.0,15-47-50,-0.35223866,0.36454642,-1.1399515,149.0,0.4127574,0.16946867,-0.07322686
0.0,0.0,0.0,0.0,15-47-50,0.035812378,0.6453257,-0.92555857,148.0,0.26248452,0.027747942,0.19677557
0.0,0.0,0.0,0.0,15-47-50,0.20257282,0.6553656,-1.4479275,146.0,0.26248452,0.027747942,0.19677557
0.0,0.0,0.0,0.0,15-47-50,0.48021317,0.5175136,0.14482355,146.0,0.08227927,0.03874352,0.091095895
0.0,0.0,0.0,0.0,15-47-50,0.21927547,0.05725151,1.455523,147.0,0.09327485,0.07661717,0.030009365
0.0,0.0,0.0,0.0,15-47-50,-0.5339775,0.19918424,1.0357447,146.0,0.09327485,0.07661717,0.030009365
0.0,0.0,0.0,0.0,15-47-50,-0.8161125,0.34412718,-0.199965,145.0,0.13420282,0.27759182,0.13019127
0.0,0.0,0.0,0.0,15-47-50,-0.5098448,-0.3092277,0.0335083,144.0,0.13420282,0.27759182,0.13019127
0.0,0.0,0.0,0.0,15-47-50,-0.32573414,-0.23013753,-0.4615631,144.0,-0.1168628,0.20306627,-0.035353214
0.0,0.0,0.0,0.0,15-47-51,-0.03619671,-0.39366338,-0.44032812,144.0,-0.1168628,0.20306627,-0.035353214
0.0,0.0,0.0,0.0,15-47-51,0.99806404,-0.20927346,0.16897488,143.0,0.2679823,-0.062049247,0.03245283
0.0,0.0,0.0,0.0,15-47-51,-0.41144276,0.0021601003,1.9530687,142.0,0.2679823,-0.062049247,0.03245283
0.0,0.0,0.0,0.0,15-47-51,-0.41101742,0.8460064,1.1838336,139.0,0.35411432,0.035078328,0.12469348
0.0,0.0,0.0,0.0,15-47-51,-0.5049219,0.496335,0.77666616,138.0,0.16047002,0.10716043,-0.032909755
0.0,0.0,0.0,0.0,15-47-51,-1.0747414,0.010450393,-0.40230608,137.0,0.16047002,0.10716043,-0.032909755
0.0,0.0,0.0,0.0,15-47-51,-0.7271948,0.3572318,0.26121426,138.0,-0.23781411,-0.08159694,0.073991664
0.0,0.0,0.0,0.0,15-47-51,-0.5443063,-0.26743025,-0.30064774,139.0,-0.23781411,-0.08159694,0.073991664
0.0,0.0,0.0,0.0,15-47-51,-1.3708305,0.089934684,-0.99084044,139.0,-0.09120646,-0.3161692,7.696902E-5
0.0,0.0,0.0,0.0,15-47-51,0.99151516,-0.6765723,-0.4532194,139.0,-0.09120646,-0.3161692,7.696902E-5
0.0,0.0,0.0,0.0,15-47-52,1.2165174,0.18752062,1.4990306,138.0,0.2771453,-0.02722993,0.053833112
0.0,0.0,0.0,0.0,15-47-52,0.68685246,-0.031224504,-0.44772625,139.0,0.2771453,-0.02722993,0.053833112
0.0,0.0,0.0,0.0,15-47-52,-0.70727444,0.15176088,2.0320091,138.0,-0.28851593,0.3093568,0.23037317
0.0,0.0,0.0,0.0,15-47-52,-2.202702,-0.1647657,-0.7025299,137.0,0.09571831,-0.21293297,0.030009365
0.0,0.0,0.0,0.0,15-47-52,-0.65519524,-0.28439417,0.28665352,136.0,0.09571831,-0.21293297,0.030009365
0.0,0.0,0.0,0.0,15-47-52,1.4151936,0.6588205,2.5557618,134.0,0.13664629,0.28614396,0.057498302
0.0,0.0,0.0,0.0,15-47-52,1.010086,-0.05380685,2.2024736,134.0,0.13664629,0.28614396,0.057498302
0.0,0.0,0.0,0.0,15-47-52,-0.76288414,0.16500498,-0.24973106,134.0,0.11465513,-0.06754704,0.0061856215
0.0,0.0,0.0,0.0,15-47-52,-1.4663205,0.4623333,-1.351903,135.0,0.11465513,-0.06754704,0.0061856215
0.0,0.0,0.0,0.0,15-47-52,-1.0229831,0.3015836,-0.19281816,135.0,-0.055776272,-0.12741183,-0.17829569
0.0,0.0,0.0,0.0,15-47-53,0.32983494,0.4161392,2.6297903,135.0,-0.115641065,0.18535118,0.052000515
0.0,0.0,0.0,0.0,15-47-53,0.8250971,-0.35884142,0.5614171,134.0,-0.115641065,0.18535118,0.052000515
0.0,0.0,0.0,0.0,15-47-53,0.476367,-0.6555234,1.1093698,133.0,0.3895445,0.022250157,0.09720454
0.0,0.0,0.0,0.0,15-47-53,-0.8049865,0.34673527,0.1132431,131.0,0.3895445,0.022250157,0.09720454
0.0,0.0,0.0,0.0,15-47-53,-0.15853119,-0.1977301,0.2409606,130.0,0.059066396,-0.075488284,0.23770355
0.0,0.0,0.0,0.0,15-47-53,0.053869247,0.19517866,1.3378468,129.0,0.059066396,-0.075488284,0.23770355
0.0,0.0,0.0,0.0,15-47-53,1.2090712,0.16332799,2.63209,127.0,0.201398,0.20673145,0.10697839
0.0,0.0,0.0,0.0,15-47-53,-1.0027089,0.1693506,-0.45378923,126.0,0.201398,0.20673145,0.10697839
0.0,0.0,0.0,0.0,15-47-53,-1.5628757,0.36798248,-0.43206167,126.0,0.009586308,-0.32777563,0.1259152
0.0,0.0,0.0,0.0,15-47-53,-0.9198952,0.5400659,0.13661528,125.0,0.15313965,-0.1982722,0.13019127
0.0,0.0,0.0,0.0,15-47-54,0.8714857,-0.2836733,0.30020428,124.0,0.15313965,-0.1982722,0.13019127
0.0,0.0,0.0,0.0,15-47-54,0.6457567,-0.19410679,1.010963,121.0,0.21239357,0.25804412,0.004963891
0.0,0.0,0.0,0.0,15-47-54,-0.26001453,-0.7484038,-0.36200428,119.0,0.21239357,0.25804412,0.004963891
0.0,0.0,0.0,0.0,15-47-54,-0.93986034,-0.10218093,0.58793974,116.0,0.5172153,-0.19582874,0.22670798
0.0,0.0,0.0,0.0,15-47-54,-1.2467418,-0.6233784,-0.25431824,113.0,0.5172153,-0.19582874,0.22670798
0.0,0.0,0.0,0.0,15-47-54,-0.1309557,-0.18878311,0.62450457,110.0,0.47262216,-0.17078327,0.122860886
0.0,0.0,0.0,0.0,15-47-54,1.1368303,0.5803061,0.8990607,109.0,0.47262216,-0.17078327,0.122860886
0.0,0.0,0.0,0.0,15-47-54,1.2555513,0.1561817,-0.16653156,108.0,0.05356861,0.40953872,-0.009696875
0.0,0.0,0.0,0.0,15-47-54,-0.29553318,0.774286,-0.44943476,105.0,0.09999436,-0.16772895,0.35010275
0.0,0.0,0.0,0.0,15-47-54,-1.5942912,0.7717974,-1.4129622,103.0,0.09999436,-0.16772895,0.35010275
0.0,0.0,0.0,0.0,15-47-55,-1.1119037,0.37797886,0.6300535,100.0,0.36388814,-0.5250851,0.15218242
0.0,0.0,0.0,0.0,15-47-55,0.7950411,-0.27909276,2.6420443,97.0,0.36388814,-0.5250851,0.15218242
0.0,0.0,0.0,0.0,15-47-55,1.5772152,0.3535358,-0.73951507,95.0,-0.12969096,0.6673238,0.32078123
0.0,0.0,0.0,0.0,15-47-55,-0.05171871,-0.5424081,-0.4636619,92.0,-0.12969096,0.6673238,0.32078123
0.0,0.0,0.0,0.0,15-47-55,-1.0744925,-0.38550442,0.15850353,88.0,0.7157465,-0.36564925,0.22854057
0.0,0.0,0.0,0.0,15-47-55,-1.1922069,-0.46490076,-0.33581877,83.0,0.7157465,-0.36564925,0.22854057
0.0,0.0,0.0,0.0,15-47-55,-0.38814545,-0.15763035,0.58651376,78.0,0.81776106,-0.30700624,0.37453735
0.0,0.0,0.0,0.0,15-47-55,0.755064,0.29438308,0.96045876,73.0,0.32723624,0.44924498,0.34032893
0.0,0.0,0.0,0.0,15-47-55,1.2464743,-0.06629121,0.75858164,69.0,0.32723624,0.44924498,0.34032893
0.0,0.0,0.0,0.0,15-47-55,-0.75923824,-0.21668732,-1.4397397,65.0,0.8660194,0.05401515,0.05505484
0.0,0.0,0.0,0.0,15-47-56,-0.3238144,-0.28995895,-1.315911,61.0,0.8660194,0.05401515,0.05505484
0.0,0.0,0.0,0.0,15-47-56,0.51333904,0.43979508,0.6003208,57.0,0.5984604,-0.05288627,0.21326894
0.0,0.0,0.0,0.0,15-47-56,1.1232853,0.15885362,1.5681543,54.0,0.5984604,-0.05288627,0.21326894
0.0,0.0,0.0,0.0,15-47-56,0.5624027,0.30562386,1.1144576,50.0,0.4842286,-0.017456084,0.3281116
0.0,0.0,0.0,0.0,15-47-56,-0.27023506,0.48971647,0.2772081,45.0,0.6015147,0.11693426,0.24259047
0.0,0.0,0.0,0.0,15-47-56,-0.6471033,-0.34817654,-0.54501915,41.0,0.6015147,0.11693426,0.24259047
0.0,0.0,0.0,0.0,15-47-56,-0.34108925,-0.4705776,-0.32915688,36.0,0.8764041,-0.09442511,0.28107497
0.0,0.0,0.0,0.0,15-47-56,0.33070087,-0.35493326,0.7422967,32.0,0.8764041,-0.09442511,0.28107497
0.0,0.0,0.0,0.0,15-47-56,0.7626562,-0.37061018,-0.40381527,28.0,0.65038395,-0.02845166,0.53763837
0.0,0.0,0.0,0.0,15-47-56,0.15226555,0.82743627,-0.8925803,24.0,0.65038395,-0.02845166,0.53763837
0.0,0.0,0.0,0.0,15-47-57,0.33202362,1.4180533,-0.12928891,19.0,0.7676701,0.075395435,0.3409398
0.0,0.0,0.0,0.0,15-47-57,-0.22187519,0.65575343,-1.185617,15.0,0.7676701,0.075395435,0.3409398
0.0,0.0,0.0,0.0,15-47-57,-0.02067566,0.32759488,-0.531389,11.0,0.70352924,0.036300056,0.15768021
0.0,0.0,0.0,0.0,15-47-57,-0.17310143,0.26672357,-1.2053776,6.0,0.5324869,0.050960824,0.23770355
0.0,0.0,0.0,0.0,15-47-57,-0.08619499,0.17858072,-0.16671729,3.0,0.5324869,0.050960824,0.23770355
0.0,0.0,0.0,0.0,15-47-57,0.42376614,0.48150146,0.08237219,359.0,0.30402336,0.37410855,0.35437882
0.0,0.0,0.0,0.0,15-47-57,0.32988167,0.441341,-1.9239192,355.0,0.30402336,0.37410855,0.35437882
0.0,0.0,0.0,0.0,15-47-57,0.22506142,0.019473493,-0.10481739,351.0,0.70597273,0.2818679,0.18150395
0.0,0.0,0.0,0.0,15-47-57,-0.3880167,-0.5646183,-0.85850835,348.0,0.70597273,0.2818679,0.18150395
0.0,0.0,0.0,0.0,15-47-57,-0.39712238,-0.42615908,-0.9265864,346.0,0.47445476,0.063788995,0.15645847
0.0,0.0,0.0,0.0,15-47-58,0.41641712,-0.41379046,-0.39032626,344.0,0.47445476,0.063788995,0.15645847
0.0,0.0,0.0,0.0,15-47-58,0.91681385,-0.17166752,0.03055811,342.0,0.31685153,0.16641435,0.16562144
0.0,0.0,0.0,0.0,15-47-58,0.25815392,0.56397897,-0.15910578,339.0,0.44330063,-0.03761464,0.19188866
0.0,0.0,0.0,0.0,15-47-58,0.24647808,1.1181009,-0.07003832,336.0,0.44330063,-0.03761464,0.19188866
0.0,0.0,0.0,0.0,15-47-58,-0.43462563,0.6865021,-0.5772505,334.0,0.26920405,0.11937773,0.104534924
0.0,0.0,0.0,0.0,15-47-58,-0.15744591,0.44009438,-0.40842342,332.0,0.26920405,0.11937773,0.104534924
0.0,0.0,0.0,0.0,15-47-58,-0.20384979,0.47067708,-1.058317,331.0,0.18185031,0.052793417,0.073991664
0.0,0.0,0.0,0.0,15-47-58,0.18279743,0.32783204,-0.39465046,330.0,0.18185031,0.052793417,0.073991664
0.0,0.0,0.0,0.0,15-47-58,0.3146267,0.54491425,1.4827137,330.0,0.18612635,-0.26974344,0.05261138
0.0,0.0,0.0,0.0,15-47-58,-0.32256508,-0.20445019,0.32435036,329.0,0.18612635,-0.26974344,0.05261138
0.0,0.0,0.0,0.0,15-47-59,-0.53423023,0.29022193,0.14302635,328.0,0.07800321,0.3325697,0.113087036
0.0,0.0,0.0,0.0,15-47-59,-0.56644297,0.19087058,-0.48530293,327.0,0.21300444,0.05218255,0.099648006
0.0,0.0,0.0,0.0,15-47-59,-0.40108967,-0.50810283,-0.6758857,325.0,0.21300444,0.05218255,0.099648006
0.0,0.0,0.0,0.0,15-47-59,0.30620575,-0.816488,0.10502863,324.0,0.2838648,-0.012569163,-0.020692449
0.0,0.0,0.0,0.0,15-47-59,0.36017895,-0.16941717,0.6554804,323.0,0.2838648,-0.012569163,-0.020692449
0.0,0.0,0.0,0.0,15-47-59,-0.3450508,0.86586887,-0.6178603,323.0,0.004699386,-0.14512692,0.060552627
0.0,0.0,0.0,0.0,15-47-59,-0.2472229,0.31804797,0.99239016,322.0,0.004699386,-0.14512692,0.060552627
0.0,0.0,0.0,0.0,15-47-59,-0.7109871,0.38903478,-0.1039896,322.0,0.17024386,0.022250157,-0.023746775
0.0,0.0,0.0,0.0,15-47-59,-1.0303502,0.5593167,-0.7794161,321.0,0.17024386,0.022250157,-0.023746775
0.0,0.0,0.0,0.0,15-48-00,-0.5467324,0.5557552,-0.23475313,322.0,-0.089373864,-0.015012625,0.06849387
0.0,0.0,0.0,0.0,15-48-00,-0.7548151,0.30484533,-0.5332551,322.0,-0.115641065,-0.044945024,0.07948945
0.0,0.0,0.0,0.0,15-48-00,-0.26014233,0.558774,-0.46314478,322.0,-0.115641065,-0.044945024,0.07948945
0.0,0.0,0.0,0.0,15-48-00,0.16860008,-0.34361494,0.75298166,321.0,0.14397667,-0.057162326,0.19494298
0.0,0.0,0.0,0.0,15-48-00,0.486578,-0.27320582,-0.5469761,320.0,0.14397667,-0.057162326,0.19494298
0.0,0.0,0.0,0.0,15-48-00,-0.34588432,-0.066324085,-1.0566688,319.0,0.36083382,-0.046777617,0.03245283
0.0,0.0,0.0,0.0,15-48-00,-1.3313937,-0.6579904,-0.8096051,319.0,0.36083382,-0.046777617,0.03245283
0.0,0.0,0.0,0.0,15-48-00,-0.8922057,-0.5294031,-0.3550806,318.0,0.14031148,-0.10786414,-0.026190236
0.0,0.0,0.0,0.0,15-48-00,0.14649582,0.5159911,1.75319,318.0,0.14031148,-0.10786414,-0.026190236
0.0,0.0,0.0,0.0,15-48-00,0.56195164,0.40339115,1.963592,317.0,0.27958876,-0.26607823,0.08804157
0.0,0.0,0.0,0.0,15-48-01,-0.42127514,0.36986727,-1.0645344,317.0,-0.044169836,0.2342204,-0.056733496
0.0,0.0,0.0,0.0,15-48-01,-0.58440685,-0.054005586,-1.0422935,318.0,-0.044169836,0.2342204,-0.056733496
0.0,0.0,0.0,0.0,15-48-01,-0.014602661,0.28535312,0.02814436,317.0,0.12381811,-0.24469796,-0.12453955
0.0,0.0,0.0,0.0,15-48-01,-0.097206116,-0.4853649,2.0962744,318.0,0.12381811,-0.24469796,-0.12453955
0.0,0.0,0.0,0.0,15-48-01,0.6455164,-0.7204753,1.4087348,317.0,0.10304869,0.22933348,0.053833112
0.0,0.0,0.0,0.0,15-48-01,-0.5694413,-0.7237513,-0.6253319,316.0,0.10304869,0.22933348,0.053833112
0.0,0.0,0.0,0.0,15-48-01,-0.8023448,-0.84321284,1.1006589,316.0,0.080446675,-0.13779654,0.061163493
0.0,0.0,0.0,0.0,15-48-01,-0.6006508,-0.5802143,-0.9286139,314.0,0.26126277,-0.11641625,0.09537195
0.0,0.0,0.0,0.0,15-48-01,0.1919899,0.25393724,0.91609955,313.0,0.26126277,-0.11641625,0.09537195
0.0,0.0,0.0,0.0,15-48-01,0.60359955,0.6383658,0.7182398,312.0,-0.22742942,0.32157412,0.08987416
0.0,0.0,0.0,0.0,15-48-02,0.6010113,0.5470372,0.91363955,311.0,-0.22742942,0.32157412,0.08987416
0.0,0.0,0.0,0.0,15-48-02,0.13525581,0.48981568,-0.7091861,310.0,0.07494889,0.15419705,0.16073453
0.0,0.0,0.0,0.0,15-48-02,-1.2088537,-0.021337748,-1.1660588,309.0,0.07494889,0.15419705,0.16073453
0.0,0.0,0.0,0.0,15-48-02,-0.13833714,-0.056895375,-0.3841052,308.0,0.15130705,-0.12802269,0.104534924
0.0,0.0,0.0,0.0,15-48-02,0.20128536,-0.528517,-0.48623037,306.0,0.15130705,-0.12802269,0.104534924
0.0,0.0,0.0,0.0,15-48-02,1.3417816,0.17263377,2.9532366,304.0,0.5324869,0.113269076,0.09537195
0.0,0.0,0.0,0.0,15-48-02,-0.02875328,-0.60283,0.1675806,304.0,0.09022052,-0.047388483,0.06543955
0.0,0.0,0.0,0.0,15-48-02,-1.4127841,-0.68701476,-0.694798,302.0,0.09022052,-0.047388483,0.06543955
0.0,0.0,0.0,0.0,15-48-02,-0.66226006,-0.29909182,-0.18034172,300.0,0.10304869,-0.08770559,0.26091644
0.0,0.0,0.0,0.0,15-48-02,-0.033385277,-0.4786354,0.92771006,299.0,0.10304869,-0.08770559,0.26091644
0.0,0.0,0.0,0.0,15-48-03,0.6310787,0.6367446,1.1037765,296.0,0.42375293,-0.25019574,0.24259047
0.0,0.0,0.0,0.0,15-48-03,1.0046301,0.5708678,0.10970926,295.0,0.42375293,-0.25019574,0.24259047
0.0,0.0,0.0,0.0,15-48-03,-0.85137033,0.55959976,-1.7342653,291.0,0.88434535,0.1444232,0.06788301
0.0,0.0,0.0,0.0,15-48-03,-0.8970108,1.0025182,-1.050508,289.0,0.88434535,0.1444232,0.06788301
0.0,0.0,0.0,0.0,15-48-03,0.050079346,0.20221835,0.44582224,285.0,0.6247276,-0.31678006,0.39225245
0.0,0.0,0.0,0.0,15-48-03,0.7498932,-0.439265,2.6987133,282.0,0.91855377,-0.14085086,0.23037317
0.0,0.0,0.0,0.0,15-48-03,1.3137255,-0.26468474,2.3835292,277.0,0.91855377,-0.14085086,0.23037317
0.0,0.0,0.0,0.0,15-48-03,-1.0254979,-0.56086946,-0.70003796,275.0,-0.025843875,0.08761274,0.42768264
0.0,0.0,0.0,0.0,15-48-03,-1.2864294,-1.1927071,-1.0462053,272.0,-0.025843875,0.08761274,0.42768264
0.0,0.0,0.0,0.0,15-48-03,-0.11918831,-0.98370993,-0.013931751,268.0,0.4714004,-0.21720901,0.24625567
0.0,0.0,0.0,0.0,15-48-04,1.6606426,-0.33845958,-0.34560585,264.0,0.4714004,-0.21720901,0.24625567
0.0,0.0,0.0,0.0,15-48-04,1.8289461,1.320831,1.4208655,259.0,0.5227131,0.18290772,0.52419937
0.0,0.0,0.0,0.0,15-48-04,0.47212982,0.24166569,1.5938859,254.0,0.5227131,0.18290772,0.52419937
0.0,0.0,0.0,0.0,15-48-04,-0.4769106,0.048834145,-0.40923285,249.0,1.1372435,-0.057773188,0.2511426
0.0,0.0,0.0,0.0,15-48-04,-0.4307127,-0.13945237,-0.57491636,244.0,0.5508129,-0.22392854,0.30306613
0.0,0.0,0.0,0.0,15-48-04,0.28840923,-0.13087544,-0.4400041,240.0,0.5508129,-0.22392854,0.30306613
0.0,0.0,0.0,0.0,15-48-04,0.30727768,0.11039692,-0.069158554,235.0,0.7994351,-0.117637984,0.47166494
0.0,0.0,0.0,0.0,15-48-04,0.24899292,-8.16226E-4,0.8859978,231.0,0.7994351,-0.117637984,0.47166494
0.0,0.0,0.0,0.0,15-48-04,0.62981606,0.305225,1.495667,227.0,0.50255454,0.32951537,0.3439941
0.0,0.0,0.0,0.0,15-48-04,-0.8414717,0.23409511,-0.8407719,222.0,0.50255454,0.32951537,0.3439941
0.0,0.0,0.0,0.0,15-48-05,-0.7285347,-0.4634466,-0.4773693,218.0,0.65221655,0.05401515,0.37820256
0.0,0.0,0.0,0.0,15-48-05,0.14142418,-1.02706,-0.07046509,213.0,0.65221655,0.05401515,0.37820256
0.0,0.0,0.0,0.0,15-48-05,0.51173687,-0.44011998,0.13830638,209.0,0.8012676,0.0020916027,0.21937759
0.0,0.0,0.0,0.0,15-48-05,0.70556545,0.47411525,2.118797,204.0,0.8128741,-0.17139414,0.38553292
0.0,0.0,0.0,0.0,15-48-05,0.7887535,0.8328233,-0.55657315,200.0,0.8128741,-0.17139414,0.38553292
0.0,0.0,0.0,0.0,15-48-05,0.26696682,0.7038341,0.4466195,196.0,0.5673063,-0.0015735888,0.27313372
0.0,0.0,0.0,0.0,15-48-05,-0.86009884,0.121144146,-1.1434884,193.0,0.5673063,-0.0015735888,0.27313372
0.0,0.0,0.0,0.0,15-48-05,-0.39548206,0.5626796,-0.718483,190.0,0.41092476,0.038132653,0.28474018
0.0,0.0,0.0,0.0,15-48-05,0.2859249,0.41608623,-0.70479345,186.0,0.41092476,0.038132653,0.28474018
0.0,0.0,0.0,0.0,15-48-05,0.35070705,0.5344442,0.09349203,183.0,0.5880757,-0.076710016,0.27435547
0.0,0.0,0.0,0.0,15-48-06,1.2286034,-0.19331586,3.0255396,180.0,0.5880757,-0.076710016,0.27435547
0.0,0.0,0.0,0.0,15-48-06,0.8179531,0.9739651,0.8756852,177.0,0.5227131,-0.0015735888,0.21265808
0.0,0.0,0.0,0.0,15-48-06,-0.27346134,0.31753752,-0.81697416,173.0,0.45796138,-0.0559406,0.18150395
0.0,0.0,0.0,0.0,15-48-06,-0.7252979,0.1961418,-0.54081154,170.0,0.45796138,-0.0559406,0.18150395
0.0,0.0,0.0,0.0,15-48-06,-0.15350819,0.13020737,-0.57676864,166.0,0.5929626,-0.0052387803,0.1399651
0.0,0.0,0.0,0.0,15-48-06,0.32644272,-0.18599129,0.035180807,162.0,0.5929626,-0.0052387803,0.1399651
0.0,0.0,0.0,0.0,15-48-06,0.6517992,0.10663704,0.26546288,159.0,0.45368534,0.1902381,0.28474018
0.0,0.0,0.0,0.0,15-48-06,0.2638483,0.77470297,-1.355968,156.0,0.45368534,0.1902381,0.28474018
0.0,0.0,0.0,0.0,15-48-06,0.19839668,0.42417657,0.21401405,153.0,0.54531515,0.11998859,0.20227335
0.0,0.0,0.0,0.0,15-48-06,-0.48926926,0.3980779,-0.7213526,151.0,0.08960966,0.031413134,0.17600617
0.0,0.0,0.0,0.0,15-48-07,-0.44900417,0.627038,-0.5004592,150.0,0.08960966,0.031413134,0.17600617
0.0,0.0,0.0,0.0,15-48-07,0.1473465,0.47746724,0.11777592,149.0,-0.04050464,0.058291208,0.07276993
0.0,0.0,0.0,0.0,15-48-07,0.419899,0.5888447,0.48415995,150.0,-0.04050464,0.058291208,0.07276993
0.0,0.0,0.0,0.0,15-48-07,0.4926834,-0.10204481,0.813045,150.0,0.03646438,0.11082561,-0.04146187
0.0,0.0,0.0,0.0,15-48-07,-0.2779894,-0.329635,-0.039085865,150.0,0.03646438,0.11082561,-0.04146187
0.0,0.0,0.0,0.0,15-48-07,-0.2585392,-0.089941636,1.9480891,150.0,-0.22254248,0.0882236,0.03245283
0.0,0.0,0.0,0.0,15-48-07,-0.56875706,0.33408713,0.37578487,150.0,-0.22254248,0.0882236,0.03245283
0.0,0.0,0.0,0.0,15-48-07,-0.47771454,-0.24463002,0.897697,149.0,-0.047835026,-0.17628105,0.034896288
0.0,0.0,0.0,0.0,15-48-07,-0.8856869,-0.26615486,0.86561155,150.0,-0.047835026,-0.17628105,0.034896288
0.0,0.0,0.0,0.0,15-48-07,-0.8856869,-0.26615486,0.86561155,150.0,-0.047835026,-0.17628105,0.034896288
0.0,0.0,0.0,0.0,15-48-08,-0.8856869,-0.26615486,0.86561155,150.0,-0.047835026,-0.17628105,0.034896288
0.0,0.0,0.0,0.0,15-48-08,-0.8856869,-0.26615486,0.86561155,150.0,-0.047835026,-0.17628105,0.034896288
0.0,0.0,0.0,0.0,15-48-08,-0.8856869,-0.26615486,0.86561155,150.0,-0.047835026,-0.17628105,0.034896288
0.0,0.0,0.0,0.0,15-48-08,-0.8856869,-0.26615486,0.86561155,150.0,-0.047835026,-0.17628105,0.034896288
0.0,0.0,0.0,0.0,15-48-08,-0.8856869,-0.26615486,0.86561155,150.0,-0.047835026,-0.17628105,0.034896288
